Main-Trace,Start Freq(Hz),Stop Freq(Hz),Center Freq(Hz),Span Freq(Hz)
Spectrum,244997500000,245002500000,245000000000,5000000,

Analysis Start Time(ms),Analysis Time Length(ms),Capture Time(ms),ATT(dB)
0,50,50,60

Ref Level(dBm),Pre-Amp
10.00, Off

RBW(Hz),Marker Result
30000,Integration

Detection,Trace Point
Average,1025

Storage Mode
Off

Wave Data(dBm)
-42.795
-42.772
-42.737
-42.712
-42.702
-42.693
-42.657
-42.568
-42.426
-42.270
-42.158
-42.134
-42.199
-42.318
-42.441
-42.532
-42.585
-42.614
-42.633
-42.652
-42.672
-42.690
-42.703
-42.708
-42.710
-42.711
-42.713
-42.715
-42.712
-42.704
-42.692
-42.674
-42.644
-42.596
-42.532
-42.462
-42.397
-42.349
-42.323
-42.319
-42.332
-42.356
-42.382
-42.402
-42.410
-42.405
-42.391
-42.378
-42.367
-42.357
-42.339
-42.311
-42.278
-42.252
-42.244
-42.251
-42.262
-42.261
-42.240
-42.202
-42.156
-42.108
-42.059
-42.003
-41.936
-41.856
-41.773
-41.704
-41.665
-41.667
-41.712
-41.792
-41.888
-41.979
-42.046
-42.078
-42.079
-42.062
-42.035
-42.005
-41.967
-41.919
-41.864
-41.813
-41.772
-41.740
-41.710
-41.677
-41.645
-41.626
-41.623
-41.630
-41.634
-41.618
-41.579
-41.529
-41.487
-41.471
-41.487
-41.530
-41.578
-41.610
-41.609
-41.578
-41.530
-41.487
-41.462
-41.454
-41.449
-41.432
-41.396
-41.347
-41.297
-41.254
-41.222
-41.196
-41.174
-41.155
-41.143
-41.141
-41.148
-41.158
-41.160
-41.149
-41.128
-41.104
-41.088
-41.083
-41.092
-41.111
-41.135
-41.154
-41.154
-41.122
-41.060
-40.979
-40.891
-40.808
-40.734
-40.669
-40.620
-40.589
-40.580
-40.592
-40.621
-40.657
-40.688
-40.704
-40.703
-40.693
-40.686
-40.692
-40.712
-40.739
-40.760
-40.758
-40.719
-40.643
-40.543
-40.440
-40.348
-40.271
-40.205
-40.147
-40.098
-40.066
-40.056
-40.069
-40.099
-40.136
-40.171
-40.196
-40.208
-40.202
-40.175
-40.131
-40.074
-40.011
-39.948
-39.883
-39.811
-39.732
-39.646
-39.556
-39.455
-39.320
-39.119
-38.834
-38.493
-38.178
-37.982
-37.965
-38.123
-38.390
-38.671
-38.891
-39.027
-39.102
-39.150
-39.189
-39.220
-39.235
-39.229
-39.202
-39.162
-39.114
-39.062
-39.006
-38.945
-38.880
-38.817
-38.762
-38.723
-38.700
-38.691
-38.693
-38.694
-38.679
-38.627
-38.536
-38.426
-38.331
-38.280
-38.273
-38.282
-38.270
-38.214
-38.117
-38.003
-37.897
-37.815
-37.759
-37.725
-37.705
-37.693
-37.683
-37.671
-37.655
-37.629
-37.586
-37.506
-37.352
-37.079
-36.677
-36.205
-35.776
-35.498
-35.421
-35.508
-35.640
-35.657
-35.460
-35.102
-34.748
-34.562
-34.632
-34.952
-35.430
-35.922
-36.295
-36.492
-36.535
-36.480
-36.383
-36.285
-36.206
-36.154
-36.124
-36.109
-36.102
-36.098
-36.093
-36.088
-36.079
-36.059
-36.024
-35.968
-35.890
-35.789
-35.668
-35.534
-35.402
-35.288
-35.201
-35.140
-35.092
-35.042
-34.979
-34.903
-34.825
-34.762
-34.728
-34.725
-34.741
-34.750
-34.726
-34.650
-34.527
-34.379
-34.238
-34.124
-34.045
-34.001
-33.985
-33.995
-34.023
-34.058
-34.080
-34.069
-34.011
-33.906
-33.764
-33.603
-33.435
-33.272
-33.116
-32.968
-32.833
-32.713
-32.609
-32.522
-32.453
-32.406
-32.384
-32.384
-32.395
-32.404
-32.404
-32.393
-32.378
-32.358
-32.323
-32.259
-32.160
-32.038
-31.908
-31.779
-31.650
-31.518
-31.389
-31.274
-31.185
-31.119
-31.070
-31.025
-30.977
-30.920
-30.850
-30.768
-30.679
-30.593
-30.519
-30.455
-30.393
-30.319
-30.228
-30.125
-30.020
-29.924
-29.841
-29.780
-29.748
-29.744
-29.754
-29.757
-29.736
-29.683
-29.601
-29.490
-29.356
-29.210
-29.074
-28.969
-28.906
-28.876
-28.856
-28.823
-28.771
-28.707
-28.645
-28.591
-28.545
-28.496
-28.441
-28.378
-28.309
-28.239
-28.169
-28.098
-28.028
-27.960
-27.895
-27.831
-27.765
-27.699
-27.643
-27.607
-27.598
-27.610
-27.630
-27.647
-27.653
-27.642
-27.614
-27.571
-27.519
-27.467
-27.412
-27.350
-27.281
-27.211
-27.154
-27.119
-27.110
-27.119
-27.135
-27.146
-27.146
-27.138
-27.124
-27.108
-27.090
-27.075
-27.070
-27.077
-27.087
-27.088
-27.069
-27.030
-26.979
-26.927
-26.884
-26.855
-26.844
-26.849
-26.867
-26.891
-26.912
-26.915
-26.885
-26.812
-26.705
-26.592
-26.505
-26.464
-26.467
-26.497
-26.534
-26.562
-26.577
-26.583
-26.586
-26.594
-26.611
-26.639
-26.676
-26.710
-26.729
-26.726
-26.703
-26.670
-26.637
-26.610
-26.590
-26.571
-26.544
-26.499
-26.437
-26.368
-26.303
-26.250
-26.210
-26.181
-26.163
-26.151
-26.132
-26.091
-26.016
-25.913
-25.795
-25.671
-25.538
-25.377
-25.160
-24.861
-24.453
-23.885
-23.015
-21.492
-18.827
-14.997
-10.637
-6.377
-2.556
0.678
3.258
5.153
6.348
6.835
6.611
5.677
4.036
1.697
-1.321
-4.970
-9.144
-13.579
-17.719
-20.819
-22.657
-23.674
-24.300
-24.732
-25.047
-25.280
-25.460
-25.615
-25.762
-25.907
-26.042
-26.153
-26.232
-26.283
-26.315
-26.335
-26.347
-26.355
-26.369
-26.401
-26.456
-26.522
-26.582
-26.619
-26.634
-26.641
-26.654
-26.676
-26.699
-26.710
-26.701
-26.672
-26.631
-26.588
-26.552
-26.525
-26.509
-26.503
-26.507
-26.518
-26.529
-26.531
-26.523
-26.517
-26.533
-26.585
-26.670
-26.765
-26.844
-26.890
-26.907
-26.906
-26.897
-26.882
-26.864
-26.850
-26.849
-26.864
-26.894
-26.930
-26.962
-26.983
-26.988
-26.984
-26.980
-26.991
-27.019
-27.061
-27.108
-27.151
-27.187
-27.210
-27.218
-27.214
-27.209
-27.214
-27.237
-27.280
-27.336
-27.395
-27.450
-27.499
-27.546
-27.593
-27.633
-27.660
-27.670
-27.665
-27.652
-27.638
-27.629
-27.634
-27.658
-27.697
-27.744
-27.791
-27.833
-27.876
-27.926
-27.994
-28.081
-28.180
-28.282
-28.374
-28.450
-28.510
-28.559
-28.604
-28.654
-28.710
-28.769
-28.823
-28.866
-28.903
-28.950
-29.025
-29.136
-29.275
-29.427
-29.573
-29.700
-29.797
-29.853
-29.864
-29.839
-29.800
-29.774
-29.782
-29.830
-29.911
-30.015
-30.128
-30.235
-30.326
-30.402
-30.471
-30.545
-30.624
-30.703
-30.769
-30.816
-30.847
-30.871
-30.900
-30.945
-31.017
-31.117
-31.244
-31.390
-31.542
-31.691
-31.832
-31.963
-32.084
-32.190
-32.269
-32.316
-32.339
-32.356
-32.377
-32.404
-32.428
-32.443
-32.450
-32.459
-32.484
-32.534
-32.613
-32.718
-32.837
-32.959
-33.081
-33.207
-33.347
-33.499
-33.650
-33.779
-33.869
-33.918
-33.938
-33.944
-33.954
-33.978
-34.016
-34.061
-34.103
-34.137
-34.170
-34.221
-34.300
-34.404
-34.510
-34.594
-34.643
-34.667
-34.686
-34.715
-34.756
-34.805
-34.858
-34.913
-34.969
-35.031
-35.104
-35.196
-35.311
-35.442
-35.579
-35.706
-35.816
-35.906
-35.981
-36.042
-36.092
-36.129
-36.155
-36.172
-36.179
-36.175
-36.164
-36.155
-36.161
-36.194
-36.255
-36.331
-36.396
-36.410
-36.326
-36.090
-35.671
-35.108
-34.526
-34.084
-33.910
-34.057
-34.488
-35.073
-35.618
-35.949
-36.035
-35.995
-35.982
-36.092
-36.338
-36.663
-36.985
-37.245
-37.435
-37.574
-37.683
-37.762
-37.807
-37.821
-37.821
-37.828
-37.859
-37.917
-37.990
-38.065
-38.131
-38.184
-38.224
-38.253
-38.279
-38.313
-38.369
-38.452
-38.556
-38.663
-38.753
-38.819
-38.867
-38.904
-38.936
-38.961
-38.971
-38.962
-38.940
-38.917
-38.907
-38.918
-38.947
-38.988
-39.036
-39.088
-39.142
-39.194
-39.241
-39.278
-39.307
-39.324
-39.310
-39.228
-39.045
-38.764
-38.449
-38.206
-38.123
-38.237
-38.514
-38.867
-39.199
-39.453
-39.625
-39.741
-39.824
-39.881
-39.912
-39.920
-39.907
-39.888
-39.877
-39.889
-39.929
-39.991
-40.058
-40.118
-40.163
-40.194
-40.219
-40.246
-40.280
-40.321
-40.361
-40.390
-40.402
-40.404
-40.408
-40.427
-40.467
-40.524
-40.590
-40.652
-40.701
-40.731
-40.737
-40.728
-40.717
-40.719
-40.740
-40.775
-40.809
-40.833
-40.844
-40.850
-40.859
-40.873
-40.885
-40.888
-40.882
-40.876
-40.880
-40.901
-40.941
-40.995
-41.055
-41.109
-41.148
-41.168
-41.173
-41.171
-41.172
-41.177
-41.185
-41.189
-41.187
-41.183
-41.179
-41.180
-41.186
-41.195
-41.202
-41.206
-41.212
-41.231
-41.276
-41.351
-41.445
-41.541
-41.616
-41.660
-41.680
-41.688
-41.701
-41.728
-41.765
-41.800
-41.824
-41.829
-41.820
-41.805
-41.793
-41.786
-41.782
-41.775
-41.766
-41.761
-41.768
-41.792
-41.834
-41.884
-41.928
-41.951
-41.945
-41.917
-41.884
-41.865
-41.872
-41.904
-41.956
-42.020
-42.092
-42.161
-42.212
-42.230
-42.209
-42.163
-42.120
-42.111
-42.149
-42.226
-42.317
-42.394
-42.443
-42.464
-42.470
-42.471
-42.467
-42.460
-42.447
-42.431
-42.414
-42.402
-42.395
-42.395
-42.406
-42.427
-42.461
-42.501
-42.537
-42.559
-42.567
-42.570
-42.573
-42.577
-42.581
-42.589
-42.607
-42.639
-42.674
-42.693
-42.687
-42.664
-42.643
-42.641
-42.659
-42.682
-42.693
-42.681
-42.648
-42.607
-42.576
-42.571
-42.601
-42.661
-42.737
-42.808
-42.857
-42.875
-42.860
-42.819
-42.759
-42.679
-42.576
-42.453
-42.337
-42.269
-42.289
-42.406
-42.595
-42.802
-42.975
-43.092
-43.159
-43.197
-43.216
-43.211
-43.166
-43.054
-42.851
-42.548
-42.182
-41.837
-41.617
-41.590
-41.762
-42.058
-42.353
-42.528
-42.549
-42.477
-42.402
-42.384
-42.440
-42.554
-42.698
-42.847
-42.985
-43.102
-43.197
-43.277
-43.344
-43.395
-43.423
-43.425
-43.405
